block	trialType	trial	signal	response	ssd	rt
1	practiceGoTrials	1	0	1	NaN	0.8018118279869668
1	practiceGoTrials	2	0	1	NaN	0.8310553159972187
1	practiceGoTrials	3	0	1	NaN	0.7929207490233239
1	practiceGoTrials	4	0	1	NaN	0.7831007420027163
1	practiceGoTrials	5	0	1	NaN	0.7938737560180016
2	practiceMixedTrials	1	1	1	0.5	0.07827382200048305
2	practiceMixedTrials	2	0	1	NaN	0.7921703030006029
2	practiceMixedTrials	3	0	1	NaN	0.8034274709934834
2	practiceMixedTrials	4	1	0	0.475	NaN
2	practiceMixedTrials	5	1	0	0.5	NaN
2	practiceMixedTrials	6	0	1	NaN	0.7903389779967256
2	practiceMixedTrials	7	0	1	NaN	0.7822719620016869
2	practiceMixedTrials	8	0	1	NaN	0.7955714300042018
2	practiceMixedTrials	9	1	0	0.525	NaN
2	practiceMixedTrials	10	1	0	0.55	NaN
3	testBlocks	1	0	1	NaN	0.8629897290084045
3	testBlocks	2	0	1	NaN	0.7581070180167444
3	testBlocks	3	0	1	NaN	0.768003058998147
3	testBlocks	4	1	0	0.5	NaN
3	testBlocks	5	0	1	NaN	0.791734496015124
3	testBlocks	6	1	0	0.525	NaN
3	testBlocks	7	1	0	0.55	NaN
3	testBlocks	8	0	1	NaN	0.8069751159928273
3	testBlocks	9	0	1	NaN	0.8094871230132412
3	testBlocks	10	1	1	0.5750000000000001	0.797890023997752
3	testBlocks	11	1	1	0.55	0.7646879199892282
3	testBlocks	12	0	1	NaN	0.8423391669930425
3	testBlocks	13	0	1	NaN	0.8237802179937717
3	testBlocks	14	0	1	NaN	0.8071521060192026
3	testBlocks	15	1	0	0.525	NaN
3	testBlocks	16	1	0	0.55	NaN
3	testBlocks	17	0	1	NaN	0.7780555459903553
3	testBlocks	18	0	1	NaN	0.8055135270114988
3	testBlocks	19	1	1	0.5750000000000001	0.7785077570006251
3	testBlocks	20	0	1	NaN	0.7934196529968176
3	testBlocks	21	0	1	NaN	0.8258568749879487
3	testBlocks	22	0	1	NaN	0.7565723290026654
3	testBlocks	23	0	1	NaN	0.7929332589847036
3	testBlocks	24	0	1	NaN	0.8236224099819083
3	testBlocks	25	0	1	NaN	0.7880583889782429
3	testBlocks	26	0	1	NaN	0.837093134992756
3	testBlocks	27	0	1	NaN	0.7701800109934993
3	testBlocks	28	1	0	0.55	NaN
3	testBlocks	29	0	1	NaN	0.8413669839792419
3	testBlocks	30	0	1	NaN	0.7896573340112809
3	testBlocks	31	0	1	NaN	0.7802927190205082
3	testBlocks	32	0	1	NaN	0.7619168669916689
3	testBlocks	33	0	1	NaN	0.7901925400074106
3	testBlocks	34	0	1	NaN	0.8228610229853075
3	testBlocks	35	1	1	0.5750000000000001	0.7669586279953364
3	testBlocks	36	0	1	NaN	0.7871836469857953
3	testBlocks	37	0	1	NaN	0.7896059879858512
3	testBlocks	38	0	1	NaN	0.7808938790112734
3	testBlocks	39	0	1	NaN	0.8094228880072478
3	testBlocks	40	1	0	0.55	NaN
3	testBlocks	41	0	1	NaN	0.7794408449844923
3	testBlocks	42	0	1	NaN	0.8293626599770505
3	testBlocks	43	0	1	NaN	0.7992498440144118
3	testBlocks	44	0	1	NaN	0.7874988030234817
3	testBlocks	45	0	1	NaN	0.7634629910171498
3	testBlocks	46	0	1	NaN	0.8188971170166042
3	testBlocks	47	1	1	0.5750000000000001	0.7830779349897057
3	testBlocks	48	0	1	NaN	0.8142284300120082
3	testBlocks	49	1	0	0.55	NaN
3	testBlocks	50	1	0	0.5750000000000001	NaN
3	testBlocks	51	0	1	NaN	0.801148814993212
3	testBlocks	52	0	1	NaN	0.7726285019889474
3	testBlocks	53	0	1	NaN	0.7726364359841682
3	testBlocks	54	0	1	NaN	0.7774813910073135
3	testBlocks	55	0	1	NaN	0.8048203229845967
3	testBlocks	56	0	1	NaN	0.8189632539870217
3	testBlocks	57	0	1	NaN	0.8316612289927434
3	testBlocks	58	0	1	NaN	0.828410555026494
3	testBlocks	59	0	1	NaN	0.7917050540272612
3	testBlocks	60	0	1	NaN	0.783076832012739
3	testBlocks	61	0	1	NaN	0.796475098002702
3	testBlocks	62	1	1	0.6000000000000001	0.7905241510015912
3	testBlocks	63	0	1	NaN	0.8266129519906826
3	testBlocks	64	1	1	0.5750000000000001	0.8079866679909173
4	testBlocks	1	0	1	NaN	0.8359226329775993
4	testBlocks	2	1	0	0.55	NaN
4	testBlocks	3	0	1	NaN	0.8164012199849822
4	testBlocks	4	1	0	0.5750000000000001	NaN
4	testBlocks	5	1	1	0.6000000000000001	0.7870699839841109
4	testBlocks	6	0	1	NaN	0.8600586949905846
4	testBlocks	7	0	1	NaN	0.8100599399767816
4	testBlocks	8	0	1	NaN	0.8390831039869227
4	testBlocks	9	0	1	NaN	0.7818091040244326
4	testBlocks	10	0	1	NaN	0.8284874929813668
4	testBlocks	11	0	1	NaN	0.7865872079855762
4	testBlocks	12	1	1	0.5750000000000001	0.7677755060140043
4	testBlocks	13	0	1	NaN	0.8223589150002226
4	testBlocks	14	0	1	NaN	0.8087974730005953
4	testBlocks	15	1	0	0.55	NaN
4	testBlocks	16	0	1	NaN	0.7507629600004293
4	testBlocks	17	1	0	0.5750000000000001	NaN
4	testBlocks	18	0	1	NaN	0.7654208710009698
4	testBlocks	19	0	1	NaN	0.7881263330054935
4	testBlocks	20	0	1	NaN	0.7806777590012643
4	testBlocks	21	0	1	NaN	0.7824742090015206
4	testBlocks	22	1	0	0.6000000000000001	NaN
4	testBlocks	23	1	1	0.6250000000000001	0.777624200010905
4	testBlocks	24	0	1	NaN	0.7886159229965415
4	testBlocks	25	0	1	NaN	0.7668831660121214
4	testBlocks	26	1	0	0.6000000000000001	NaN
4	testBlocks	27	0	1	NaN	0.8272151590208523
4	testBlocks	28	0	1	NaN	0.814598177006701
4	testBlocks	29	0	1	NaN	0.8008679889899213
4	testBlocks	30	0	1	NaN	0.0019585780100896955
4	testBlocks	31	1	1	0.6250000000000001	0.7871958239993546
4	testBlocks	32	0	1	NaN	0.8461907540040556
4	testBlocks	33	0	1	NaN	0.7981027509958949
4	testBlocks	34	0	1	NaN	0.8102855359902605
4	testBlocks	35	0	1	NaN	0.8023243040079251
4	testBlocks	36	0	1	NaN	0.7889576420129742
4	testBlocks	37	0	1	NaN	0.8154421130020637
4	testBlocks	38	1	0	0.6000000000000001	NaN
4	testBlocks	39	0	1	NaN	0.827253548981389
4	testBlocks	40	0	1	NaN	0.771455962996697
4	testBlocks	41	0	1	NaN	0.8001233020040672
4	testBlocks	42	0	1	NaN	0.8146098159777466
4	testBlocks	43	0	1	NaN	0.8158312160230707
4	testBlocks	44	0	1	NaN	0.8212646289903205
4	testBlocks	45	1	1	0.6250000000000001	0.8021922640036792
4	testBlocks	46	0	1	NaN	0.7976537010108586
4	testBlocks	47	1	1	0.6000000000000001	0.7881659370032139
4	testBlocks	48	0	1	NaN	0.7765970579930581
4	testBlocks	49	0	1	NaN	0.7791057669965085
4	testBlocks	50	0	1	NaN	0.7759087799931876
4	testBlocks	51	1	0	0.5750000000000001	NaN
4	testBlocks	52	0	1	NaN	0.8292594189988449
4	testBlocks	53	0	1	NaN	0.7870504719903693
4	testBlocks	54	0	1	NaN	0.787058571993839
4	testBlocks	55	0	1	NaN	0.813288785982877
4	testBlocks	56	0	1	NaN	0.7792639270192012
4	testBlocks	57	1	1	0.6000000000000001	0.7831764420261607
4	testBlocks	58	0	1	NaN	0.78865763702197
4	testBlocks	59	0	1	NaN	0.7901851310161874
4	testBlocks	60	0	1	NaN	0.7911085830128286
4	testBlocks	61	0	1	NaN	0.812183397996705
4	testBlocks	62	0	1	NaN	0.8101218170195352
4	testBlocks	63	0	1	NaN	0.7780875400057994
4	testBlocks	64	1	0	0.5750000000000001	NaN
5	testBlocks	1	0	1	NaN	0.7972872469981667
5	testBlocks	2	0	1	NaN	0.9197078009892721
5	testBlocks	3	0	1	NaN	0.7476793480163906
5	testBlocks	4	0	1	NaN	0.7928224400093313
5	testBlocks	5	0	1	NaN	0.770003502984764
5	testBlocks	6	0	1	NaN	0.7850082509976346
5	testBlocks	7	1	1	0.6000000000000001	0.7755981159862131
5	testBlocks	8	1	0	0.5750000000000001	NaN
5	testBlocks	9	0	1	NaN	0.8476850839797407
5	testBlocks	10	1	1	0.6000000000000001	0.7837071400135756
5	testBlocks	11	0	1	NaN	0.808470411982853
5	testBlocks	12	0	1	NaN	0.8135573549952824
5	testBlocks	13	0	1	NaN	0.803957154013915
5	testBlocks	14	1	0	0.5750000000000001	NaN
5	testBlocks	15	0	1	NaN	0.8032708419777919
5	testBlocks	16	0	1	NaN	0.8234426449926104
5	testBlocks	17	0	1	NaN	0.7823322509939317
5	testBlocks	18	0	1	NaN	0.7839122779842
5	testBlocks	19	0	1	NaN	0.7673449059948325
5	testBlocks	20	0	1	NaN	0.7863680070149712
5	testBlocks	21	0	1	NaN	0.8200970489997417
5	testBlocks	22	0	1	NaN	0.7883824399905279
5	testBlocks	23	0	1	NaN	0.811078186990926
5	testBlocks	24	1	1	0.6000000000000001	0.9954290149908047
5	testBlocks	25	0	1	NaN	0.7803596320154611
5	testBlocks	26	0	1	NaN	0.812166313000489
5	testBlocks	27	0	1	NaN	0.8188968180038501
5	testBlocks	28	1	1	0.5750000000000001	0.7704351089778356
5	testBlocks	29	0	1	NaN	0.8068643730075564
5	testBlocks	30	0	1	NaN	0.8152078809798695
5	testBlocks	31	1	0	0.55	NaN
5	testBlocks	32	1	0	0.5750000000000001	NaN
5	testBlocks	33	1	1	0.6000000000000001	0.8130286759987939
5	testBlocks	34	0	1	NaN	0.8262871860060841
5	testBlocks	35	1	0	0.5750000000000001	NaN
5	testBlocks	36	0	1	NaN	0.7880692890030332
5	testBlocks	37	0	1	NaN	0.7634254849981517
5	testBlocks	38	0	1	NaN	0.8575342940166593
5	testBlocks	39	0	1	NaN	0.8105750789982267
5	testBlocks	40	0	1	NaN	0.7675024929922074
5	testBlocks	41	0	1	NaN	0.7976891899888869
5	testBlocks	42	1	1	0.6000000000000001	0.7910776110074949
5	testBlocks	43	1	0	0.5750000000000001	NaN
5	testBlocks	44	0	1	NaN	0.7901928270002827
5	testBlocks	45	1	1	0.6000000000000001	0.7947154929861426
5	testBlocks	46	0	1	NaN	0.8043334899994079
5	testBlocks	47	0	1	NaN	0.8110127790132537
5	testBlocks	48	1	1	0.5750000000000001	0.8043500630010385
5	testBlocks	49	0	1	NaN	0.7846766779839527
5	testBlocks	50	0	1	NaN	0.8238067209895235
5	testBlocks	51	0	1	NaN	0.7826828469987959
5	testBlocks	52	0	1	NaN	0.8213898749963846
5	testBlocks	53	0	1	NaN	0.7873664220096543
5	testBlocks	54	0	1	NaN	0.7745964489877224
5	testBlocks	55	0	1	NaN	0.8035656499851029
5	testBlocks	56	0	1	NaN	0.7811411170114297
5	testBlocks	57	1	0	0.55	NaN
5	testBlocks	58	0	1	NaN	0.7989971930219326
5	testBlocks	59	0	1	NaN	0.7810419590095989
5	testBlocks	60	0	1	NaN	0.7870457319950219
5	testBlocks	61	0	1	NaN	0.7711189480032772
5	testBlocks	62	1	0	0.5750000000000001	NaN
5	testBlocks	63	0	1	NaN	0.8231806429976132
5	testBlocks	64	0	1	NaN	0.8008046239847317
